{"resourceType":"Bundle","id":"tests-Typhoid34.4-bundle","type":"transaction","entry":[{"resource":{"resourceType":"Immunization","id":"typhoidp1-Typhoid34.4","extension":[{"url":"http://smart.who.int/immunizations/StructureDefinition/IMMZTypeOfDose","valueCodeableConcept":{"coding":[{"system":"http://smart.who.int/immunizations/CodeSystem/IMMZ.D","code":"DE228","display":"Ty21a"}]}}],"status":"completed","vaccineCode":{"coding":[{"system":"http://id.who.int/icd/release/11/mms","code":"XM8BU8","display":"Typhoid vaccines"}]},"patient":{"reference":"Patient/Typhoid34.4"},"occurrenceDateTime":"2022-11-14","location":{"display":"Vaccination Site"},"lotNumber":"123","expirationDate":"2026-12-31","protocolApplied":[{"series":"Primary series","doseNumberString":"1","seriesDosesString":"1"}]},"request":{"method":"PUT","url":"Immunization/typhoidp1-Typhoid34.4"}},{"resource":{"resourceType":"Observation","id":"complete-Typhoid34.4","partOf":[{"reference":"Immunization/typhoidp1-Typhoid34.4"}],"status":"final","code":{"coding":[{"system":"http://smart.who.int/immunizations/CodeSystem/IMMZ.D","code":"DE203","display":"Completed the primary vaccination series"}]},"subject":{"reference":"Patient/Typhoid34.4"},"effectiveDateTime":"2018-02-14","valueBoolean":true},"request":{"method":"PUT","url":"Observation/complete-Typhoid34.4"}},{"resource":{"resourceType":"Patient","id":"Typhoid34.4","name":[{"use":"official","text":"Typhoid34.4"}],"gender":"female","birthDate":"2016-11-14"},"request":{"method":"PUT","url":"Patient/Typhoid34.4"}}]}